File: DSC_Data/pet.txt
         Index             t Heat Flow ...            Ts            Tr
           [#]           [s]       [Wg^-1]          [°C]          [°C]
             0   0.00000e+00  -8.21543e-03   2.49989e+01   2.50000e+01
             3   3.00000e+00  -6.95603e-03   2.54990e+01   2.55000e+01
             6   6.00000e+00  -3.88048e-02   2.59946e+01   2.60000e+01
             9   9.00000e+00  -1.00411e-01   2.64860e+01   2.65000e+01
            12   1.20000e+01  -1.52072e-01   2.69787e+01   2.70000e+01
            15   1.50000e+01  -1.86798e-01   2.74738e+01   2.75000e+01
            18   1.80000e+01  -2.06343e-01   2.79710e+01   2.80000e+01
            21   2.10000e+01  -2.18403e-01   2.84692e+01   2.85000e+01
            24   2.40000e+01  -2.25703e-01   2.89681e+01   2.90000e+01
            27   2.70000e+01  -2.30016e-01   2.94674e+01   2.95000e+01
            30   3.00000e+01  -2.32490e-01   2.99669e+01   3.00000e+01
            33   3.30000e+01  -2.34153e-01   3.04666e+01   3.05000e+01
            36   3.60000e+01  -2.35160e-01   3.09664e+01   3.10000e+01
            39   3.90000e+01  -2.35989e-01   3.14662e+01   3.15000e+01
            42   4.20000e+01  -2.36575e-01   3.19660e+01   3.20000e+01
            45   4.50000e+01  -2.37005e-01   3.24659e+01   3.25000e+01
            48   4.80000e+01  -2.37319e-01   3.29657e+01   3.30000e+01
            51   5.10000e+01  -2.37574e-01   3.34656e+01   3.35000e+01
            54   5.40000e+01  -2.37712e-01   3.39655e+01   3.40000e+01
            57   5.70000e+01  -2.37855e-01   3.44654e+01   3.45000e+01
            60   6.00000e+01  -2.38088e-01   3.49652e+01   3.50000e+01
            63   6.30000e+01  -2.38347e-01   3.54651e+01   3.55000e+01
            66   6.60000e+01  -2.38613e-01   3.59650e+01   3.60000e+01
            69   6.90000e+01  -2.38832e-01   3.64649e+01   3.65000e+01
            72   7.20000e+01  -2.39026e-01   3.69647e+01   3.70000e+01
            75   7.50000e+01  -2.39258e-01   3.74646e+01   3.75000e+01
            78   7.80000e+01  -2.39458e-01   3.79645e+01   3.80000e+01
            81   8.10000e+01  -2.39681e-01   3.84644e+01   3.85000e+01
            84   8.40000e+01  -2.39929e-01   3.89642e+01   3.90000e+01
            87   8.70000e+01  -2.40198e-01   3.94641e+01   3.95000e+01
            90   9.00000e+01  -2.40473e-01   3.99640e+01   4.00000e+01
            93   9.30000e+01  -2.40775e-01   4.04638e+01   4.05000e+01
            96   9.60000e+01  -2.41044e-01   4.09637e+01   4.10000e+01
            99   9.90000e+01  -2.41333e-01   4.14636e+01   4.15000e+01
           102   1.02000e+02  -2.41645e-01   4.19634e+01   4.20000e+01
           105   1.05000e+02  -2.41987e-01   4.24633e+01   4.25000e+01
           108   1.08000e+02  -2.42357e-01   4.29631e+01   4.30000e+01
           111   1.11000e+02  -2.42688e-01   4.34630e+01   4.35000e+01
           114   1.14000e+02  -2.42998e-01   4.39629e+01   4.40000e+01
           117   1.17000e+02  -2.43350e-01   4.44627e+01   4.45000e+01
           120   1.20000e+02  -2.43711e-01   4.49626e+01   4.50000e+01
           123   1.23000e+02  -2.44085e-01   4.54624e+01   4.55000e+01
           126   1.26000e+02  -2.44449e-01   4.59623e+01   4.60000e+01
           129   1.29000e+02  -2.44831e-01   4.64621e+01   4.65000e+01
           132   1.32000e+02  -2.45237e-01   4.69619e+01   4.70000e+01
           135   1.35000e+02  -2.45611e-01   4.74618e+01   4.75000e+01
           138   1.38000e+02  -2.45986e-01   4.79616e+01   4.80000e+01
           141   1.41000e+02  -2.46386e-01   4.84615e+01   4.85000e+01
           144   1.44000e+02  -2.46787e-01   4.89613e+01   4.90000e+01
           147   1.47000e+02  -2.47193e-01   4.94612e+01   4.95000e+01
           150   1.50000e+02  -2.47608e-01   4.99610e+01   5.00000e+01
           153   1.53000e+02  -2.48033e-01   5.04608e+01   5.05000e+01
           156   1.56000e+02  -2.48555e-01   5.09607e+01   5.10000e+01
           159   1.59000e+02  -2.49093e-01   5.14605e+01   5.15000e+01
           162   1.62000e+02  -2.49625e-01   5.19603e+01   5.20000e+01
           165   1.65000e+02  -2.50099e-01   5.24601e+01   5.25000e+01
           168   1.68000e+02  -2.50511e-01   5.29600e+01   5.30000e+01
           171   1.71000e+02  -2.50904e-01   5.34598e+01   5.35000e+01
           174   1.74000e+02  -2.51347e-01   5.39596e+01   5.40000e+01
           177   1.77000e+02  -2.51883e-01   5.44595e+01   5.45000e+01
           180   1.80000e+02  -2.52622e-01   5.49592e+01   5.50000e+01
           183   1.83000e+02  -2.53881e-01   5.54589e+01   5.55000e+01
           186   1.86000e+02  -2.54079e-01   5.59588e+01   5.60000e+01
           189   1.89000e+02  -2.54270e-01   5.64587e+01   5.65000e+01
           192   1.92000e+02  -2.54606e-01   5.69585e+01   5.70000e+01
           195   1.95000e+02  -2.55022e-01   5.74584e+01   5.75000e+01
           198   1.98000e+02  -2.55593e-01   5.79582e+01   5.80000e+01
           201   2.01000e+02  -2.56182e-01   5.84580e+01   5.85000e+01
           204   2.04000e+02  -2.56798e-01   5.89578e+01   5.90000e+01
           207   2.07000e+02  -2.57616e-01   5.94575e+01   5.95000e+01
           210   2.10000e+02  -2.58594e-01   5.99573e+01   6.00000e+01
           213   2.13000e+02  -2.59182e-01   6.04571e+01   6.05000e+01
           216   2.16000e+02  -2.59759e-01   6.09569e+01   6.10000e+01
           219   2.19000e+02  -2.60386e-01   6.14567e+01   6.15000e+01
           222   2.22000e+02  -2.61175e-01   6.19564e+01   6.20000e+01
           225   2.25000e+02  -2.62034e-01   6.24562e+01   6.25000e+01
           228   2.28000e+02  -2.62922e-01   6.29559e+01   6.30000e+01
           231   2.31000e+02  -2.63844e-01   6.34557e+01   6.35000e+01
           234   2.34000e+02  -2.64758e-01   6.39554e+01   6.40000e+01
           237   2.37000e+02  -2.65673e-01   6.44552e+01   6.45000e+01
           240   2.40000e+02  -2.66629e-01   6.49549e+01   6.50000e+01
           243   2.43000e+02  -2.67652e-01   6.54546e+01   6.55000e+01
           246   2.46000e+02  -2.68711e-01   6.59543e+01   6.60000e+01
           249   2.49000e+02  -2.69683e-01   6.64541e+01   6.65000e+01
           252   2.52000e+02  -2.70592e-01   6.69538e+01   6.70000e+01
           255   2.55000e+02  -2.71381e-01   6.74536e+01   6.75000e+01
           258   2.58000e+02  -2.72079e-01   6.79533e+01   6.80000e+01
           261   2.61000e+02  -2.72751e-01   6.84531e+01   6.85000e+01
           264   2.64000e+02  -2.73279e-01   6.89529e+01   6.90000e+01
           267   2.67000e+02  -2.73631e-01   6.94528e+01   6.95000e+01
           270   2.70000e+02  -2.73671e-01   6.99526e+01   7.00000e+01
           273   2.73000e+02  -2.73596e-01   7.04525e+01   7.05000e+01
           276   2.76000e+02  -2.73475e-01   7.09525e+01   7.10000e+01
           279   2.79000e+02  -2.73312e-01   7.14524e+01   7.15000e+01
           282   2.82000e+02  -2.73085e-01   7.19523e+01   7.20000e+01
           285   2.85000e+02  -2.72883e-01   7.24522e+01   7.25000e+01
           288   2.88000e+02  -2.72778e-01   7.29521e+01   7.30000e+01
           291   2.91000e+02  -2.72702e-01   7.34521e+01   7.35000e+01
           294   2.94000e+02  -2.72646e-01   7.39520e+01   7.40000e+01
           297   2.97000e+02  -2.72589e-01   7.44519e+01   7.45000e+01
           300   3.00000e+02  -2.72554e-01   7.49518e+01   7.50000e+01
           303   3.03000e+02  -2.72568e-01   7.54517e+01   7.55000e+01
           306   3.06000e+02  -2.72671e-01   7.59515e+01   7.60000e+01
           309   3.09000e+02  -2.72811e-01   7.64514e+01   7.65000e+01
           312   3.12000e+02  -2.73039e-01   7.69512e+01   7.70000e+01
           315   3.15000e+02  -2.73311e-01   7.74511e+01   7.75000e+01
           318   3.18000e+02  -2.73592e-01   7.79509e+01   7.80000e+01
           321   3.21000e+02  -2.73831e-01   7.84508e+01   7.85000e+01
           324   3.24000e+02  -2.74001e-01   7.89506e+01   7.90000e+01
           327   3.27000e+02  -2.74123e-01   7.94505e+01   7.95000e+01
           330   3.30000e+02  -2.74260e-01   7.99504e+01   8.00000e+01
           333   3.33000e+02  -2.74488e-01   8.04502e+01   8.05000e+01
           336   3.36000e+02  -2.74709e-01   8.09501e+01   8.10000e+01
           339   3.39000e+02  -2.74925e-01   8.14499e+01   8.15000e+01
           342   3.42000e+02  -2.75098e-01   8.19498e+01   8.20000e+01
           345   3.45000e+02  -2.75127e-01   8.24497e+01   8.25000e+01
           348   3.48000e+02  -2.75089e-01   8.29496e+01   8.30000e+01
           351   3.51000e+02  -2.75068e-01   8.34495e+01   8.35000e+01
           354   3.54000e+02  -2.75068e-01   8.39494e+01   8.40000e+01
           357   3.57000e+02  -2.75029e-01   8.44493e+01   8.45000e+01
           360   3.60000e+02  -2.74957e-01   8.49492e+01   8.50000e+01
           363   3.63000e+02  -2.74939e-01   8.54491e+01   8.55000e+01
           366   3.66000e+02  -2.74931e-01   8.59490e+01   8.60000e+01
           369   3.69000e+02  -2.74848e-01   8.64489e+01   8.65000e+01
           372   3.72000e+02  -2.74700e-01   8.69488e+01   8.70000e+01
           375   3.75000e+02  -2.74528e-01   8.74487e+01   8.75000e+01
           378   3.78000e+02  -2.74397e-01   8.79486e+01   8.80000e+01
           381   3.81000e+02  -2.74340e-01   8.84485e+01   8.85000e+01
           384   3.84000e+02  -2.74274e-01   8.89484e+01   8.90000e+01
           387   3.87000e+02  -2.74168e-01   8.94483e+01   8.95000e+01
           390   3.90000e+02  -2.74039e-01   8.99483e+01   9.00000e+01
           393   3.93000e+02  -2.73968e-01   9.04482e+01   9.05000e+01
           396   3.96000e+02  -2.73866e-01   9.09481e+01   9.10000e+01
           399   3.99000e+02  -2.73772e-01   9.14480e+01   9.15000e+01
           402   4.02000e+02  -2.73632e-01   9.19479e+01   9.20000e+01
           405   4.05000e+02  -2.73392e-01   9.24478e+01   9.25000e+01
           408   4.08000e+02  -2.73059e-01   9.29478e+01   9.30000e+01
           411   4.11000e+02  -2.72787e-01   9.34477e+01   9.35000e+01
           414   4.14000e+02  -2.72599e-01   9.39477e+01   9.40000e+01
           417   4.17000e+02  -2.72518e-01   9.44476e+01   9.45000e+01
           420   4.20000e+02  -2.72542e-01   9.49475e+01   9.50000e+01
           423   4.23000e+02  -2.72581e-01   9.54474e+01   9.55000e+01
           426   4.26000e+02  -2.72604e-01   9.59473e+01   9.60000e+01
           429   4.29000e+02  -2.72618e-01   9.64471e+01   9.65000e+01
           432   4.32000e+02  -2.72720e-01   9.69470e+01   9.70000e+01
           435   4.35000e+02  -2.72858e-01   9.74469e+01   9.75000e+01
           438   4.38000e+02  -2.72993e-01   9.79467e+01   9.80000e+01
           441   4.41000e+02  -2.73157e-01   9.84466e+01   9.85000e+01
           444   4.44000e+02  -2.73347e-01   9.89465e+01   9.90000e+01
           447   4.47000e+02  -2.73522e-01   9.94463e+01   9.95000e+01
           450   4.50000e+02  -2.73745e-01   9.99462e+01   1.00000e+02
           453   4.53000e+02  -2.74046e-01   1.00446e+02   1.00500e+02
           456   4.56000e+02  -2.74362e-01   1.00946e+02   1.01000e+02
           459   4.59000e+02  -2.74684e-01   1.01446e+02   1.01500e+02
           462   4.62000e+02  -2.75000e-01   1.01946e+02   1.02000e+02
           465   4.65000e+02  -2.75362e-01   1.02445e+02   1.02500e+02
           468   4.68000e+02  -2.75790e-01   1.02945e+02   1.03000e+02
           471   4.71000e+02  -2.76173e-01   1.03445e+02   1.03500e+02
           474   4.74000e+02  -2.76513e-01   1.03945e+02   1.04000e+02
           477   4.77000e+02  -2.76893e-01   1.04445e+02   1.04500e+02
           480   4.80000e+02  -2.77273e-01   1.04944e+02   1.05000e+02
           483   4.83000e+02  -2.77644e-01   1.05444e+02   1.05500e+02
           486   4.86000e+02  -2.78031e-01   1.05944e+02   1.06000e+02
           489   4.89000e+02  -2.78450e-01   1.06444e+02   1.06500e+02
           492   4.92000e+02  -2.78870e-01   1.06944e+02   1.07000e+02
           495   4.95000e+02  -2.79279e-01   1.07443e+02   1.07500e+02
           498   4.98000e+02  -2.79703e-01   1.07943e+02   1.08000e+02
           501   5.01000e+02  -2.80116e-01   1.08443e+02   1.08500e+02
           504   5.04000e+02  -2.80465e-01   1.08943e+02   1.09000e+02
           507   5.07000e+02  -2.80761e-01   1.09443e+02   1.09500e+02
           510   5.10000e+02  -2.81116e-01   1.09943e+02   1.10000e+02
           513   5.13000e+02  -2.81529e-01   1.10442e+02   1.10500e+02
           516   5.16000e+02  -2.81906e-01   1.10942e+02   1.11000e+02
           519   5.19000e+02  -2.82293e-01   1.11442e+02   1.11500e+02
           522   5.22000e+02  -2.82675e-01   1.11942e+02   1.12000e+02
           525   5.25000e+02  -2.83025e-01   1.12442e+02   1.12500e+02
           528   5.28000e+02  -2.83355e-01   1.12941e+02   1.13000e+02
           531   5.31000e+02  -2.83698e-01   1.13441e+02   1.13500e+02
           534   5.34000e+02  -2.84028e-01   1.13941e+02   1.14000e+02
           537   5.37000e+02  -2.84317e-01   1.14441e+02   1.14500e+02
           540   5.40000e+02  -2.84587e-01   1.14941e+02   1.15000e+02
           543   5.43000e+02  -2.84882e-01   1.15441e+02   1.15500e+02
           546   5.46000e+02  -2.85210e-01   1.15940e+02   1.16000e+02
           549   5.49000e+02  -2.85553e-01   1.16440e+02   1.16500e+02
           552   5.52000e+02  -2.85798e-01   1.16940e+02   1.17000e+02
           555   5.55000e+02  -2.86057e-01   1.17440e+02   1.17500e+02
           558   5.58000e+02  -2.86275e-01   1.17940e+02   1.18000e+02
           561   5.61000e+02  -2.86516e-01   1.18440e+02   1.18500e+02
           564   5.64000e+02  -2.86761e-01   1.18939e+02   1.19000e+02
           567   5.67000e+02  -2.86967e-01   1.19439e+02   1.19500e+02
           570   5.70000e+02  -2.87186e-01   1.19939e+02   1.20000e+02
           573   5.73000e+02  -2.87418e-01   1.20439e+02   1.20500e+02
           576   5.76000e+02  -2.87650e-01   1.20939e+02   1.21000e+02
           579   5.79000e+02  -2.87859e-01   1.21439e+02   1.21500e+02
           582   5.82000e+02  -2.88028e-01   1.21939e+02   1.22000e+02
           585   5.85000e+02  -2.88191e-01   1.22438e+02   1.22500e+02
           588   5.88000e+02  -2.88372e-01   1.22938e+02   1.23000e+02
           591   5.91000e+02  -2.88528e-01   1.23438e+02   1.23500e+02
           594   5.94000e+02  -2.88636e-01   1.23938e+02   1.24000e+02
           597   5.97000e+02  -2.88743e-01   1.24438e+02   1.24500e+02
           600   6.00000e+02  -2.88874e-01   1.24938e+02   1.25000e+02
           603   6.03000e+02  -2.89059e-01   1.25438e+02   1.25500e+02
           606   6.06000e+02  -2.89277e-01   1.25937e+02   1.26000e+02
           609   6.09000e+02  -2.89444e-01   1.26437e+02   1.26500e+02
           612   6.12000e+02  -2.89571e-01   1.26937e+02   1.27000e+02
           615   6.15000e+02  -2.89706e-01   1.27437e+02   1.27500e+02
           618   6.18000e+02  -2.89883e-01   1.27937e+02   1.28000e+02
           621   6.21000e+02  -2.90102e-01   1.28437e+02   1.28500e+02
           624   6.24000e+02  -2.90309e-01   1.28937e+02   1.29000e+02
           627   6.27000e+02  -2.90488e-01   1.29436e+02   1.29500e+02
           630   6.30000e+02  -2.90622e-01   1.29936e+02   1.30000e+02
           633   6.33000e+02  -2.90755e-01   1.30436e+02   1.30500e+02
           636   6.36000e+02  -2.90899e-01   1.30936e+02   1.31000e+02
           639   6.39000e+02  -2.91026e-01   1.31436e+02   1.31500e+02
           642   6.42000e+02  -2.91161e-01   1.31936e+02   1.32000e+02
           645   6.45000e+02  -2.91270e-01   1.32436e+02   1.32500e+02
           648   6.48000e+02  -2.91391e-01   1.32935e+02   1.33000e+02
           651   6.51000e+02  -2.91578e-01   1.33435e+02   1.33500e+02
           654   6.54000e+02  -2.91813e-01   1.33935e+02   1.34000e+02
           657   6.57000e+02  -2.92085e-01   1.34435e+02   1.34500e+02
           660   6.60000e+02  -2.92364e-01   1.34935e+02   1.35000e+02
           663   6.63000e+02  -2.92618e-01   1.35435e+02   1.35500e+02
           666   6.66000e+02  -2.92857e-01   1.35935e+02   1.36000e+02
           669   6.69000e+02  -2.93097e-01   1.36434e+02   1.36500e+02
           672   6.72000e+02  -2.93281e-01   1.36934e+02   1.37000e+02
           675   6.75000e+02  -2.93463e-01   1.37434e+02   1.37500e+02
           678   6.78000e+02  -2.93658e-01   1.37934e+02   1.38000e+02
           681   6.81000e+02  -2.93913e-01   1.38434e+02   1.38500e+02
           684   6.84000e+02  -2.94138e-01   1.38934e+02   1.39000e+02
           687   6.87000e+02  -2.94362e-01   1.39433e+02   1.39500e+02
           690   6.90000e+02  -2.94582e-01   1.39933e+02   1.40000e+02
           693   6.93000e+02  -2.94825e-01   1.40433e+02   1.40500e+02
           696   6.96000e+02  -2.95085e-01   1.40933e+02   1.41000e+02
           699   6.99000e+02  -2.95406e-01   1.41433e+02   1.41500e+02
           702   7.02000e+02  -2.95753e-01   1.41933e+02   1.42000e+02
           705   7.05000e+02  -2.96043e-01   1.42432e+02   1.42500e+02
           708   7.08000e+02  -2.96323e-01   1.42932e+02   1.43000e+02
           711   7.11000e+02  -2.96595e-01   1.43432e+02   1.43500e+02
           714   7.14000e+02  -2.96871e-01   1.43932e+02   1.44000e+02
           717   7.17000e+02  -2.97141e-01   1.44432e+02   1.44500e+02
           720   7.20000e+02  -2.97468e-01   1.44932e+02   1.45000e+02
           723   7.23000e+02  -2.97803e-01   1.45431e+02   1.45500e+02
           726   7.26000e+02  -2.98167e-01   1.45931e+02   1.46000e+02
           729   7.29000e+02  -2.98512e-01   1.46431e+02   1.46500e+02
           732   7.32000e+02  -2.98797e-01   1.46931e+02   1.47000e+02
           735   7.35000e+02  -2.99084e-01   1.47431e+02   1.47500e+02
           738   7.38000e+02  -2.99453e-01   1.47930e+02   1.48000e+02
           741   7.41000e+02  -2.99835e-01   1.48430e+02   1.48500e+02
           744   7.44000e+02  -3.00180e-01   1.48930e+02   1.49000e+02
           747   7.47000e+02  -3.00505e-01   1.49430e+02   1.49500e+02
           750   7.50000e+02  -3.00871e-01   1.49930e+02   1.50000e+02
           753   7.53000e+02  -3.01273e-01   1.50430e+02   1.50500e+02
           756   7.56000e+02  -3.01627e-01   1.50929e+02   1.51000e+02
           759   7.59000e+02  -3.01975e-01   1.51429e+02   1.51500e+02
           762   7.62000e+02  -3.02333e-01   1.51929e+02   1.52000e+02
           765   7.65000e+02  -3.02692e-01   1.52429e+02   1.52500e+02
           768   7.68000e+02  -3.03035e-01   1.52929e+02   1.53000e+02
           771   7.71000e+02  -3.03379e-01   1.53428e+02   1.53500e+02
           774   7.74000e+02  -3.03709e-01   1.53928e+02   1.54000e+02
           777   7.77000e+02  -3.04060e-01   1.54428e+02   1.54500e+02
           780   7.80000e+02  -3.04460e-01   1.54928e+02   1.55000e+02
           783   7.83000e+02  -3.04896e-01   1.55428e+02   1.55500e+02
           786   7.86000e+02  -3.05349e-01   1.55927e+02   1.56000e+02
           789   7.89000e+02  -3.05797e-01   1.56427e+02   1.56500e+02
           792   7.92000e+02  -3.06233e-01   1.56927e+02   1.57000e+02
           795   7.95000e+02  -3.06621e-01   1.57427e+02   1.57500e+02
           798   7.98000e+02  -3.06965e-01   1.57927e+02   1.58000e+02
           801   8.01000e+02  -3.07340e-01   1.58426e+02   1.58500e+02
           804   8.04000e+02  -3.07784e-01   1.58926e+02   1.59000e+02
           807   8.07000e+02  -3.08231e-01   1.59426e+02   1.59500e+02
           810   8.10000e+02  -3.08626e-01   1.59926e+02   1.60000e+02
           813   8.13000e+02  -3.08973e-01   1.60426e+02   1.60500e+02
           816   8.16000e+02  -3.09365e-01   1.60925e+02   1.61000e+02
           819   8.19000e+02  -3.09760e-01   1.61425e+02   1.61500e+02
           822   8.22000e+02  -3.10149e-01   1.61925e+02   1.62000e+02
           825   8.25000e+02  -3.10559e-01   1.62425e+02   1.62500e+02
           828   8.28000e+02  -3.10940e-01   1.62925e+02   1.63000e+02
           831   8.31000e+02  -3.11319e-01   1.63424e+02   1.63500e+02
           834   8.34000e+02  -3.11698e-01   1.63924e+02   1.64000e+02
           837   8.37000e+02  -3.12135e-01   1.64424e+02   1.64500e+02
           840   8.40000e+02  -3.12602e-01   1.64924e+02   1.65000e+02
           843   8.43000e+02  -3.13051e-01   1.65423e+02   1.65500e+02
           846   8.46000e+02  -3.13516e-01   1.65923e+02   1.66000e+02
           849   8.49000e+02  -3.13964e-01   1.66423e+02   1.66500e+02
           852   8.52000e+02  -3.14369e-01   1.66923e+02   1.67000e+02
           855   8.55000e+02  -3.14755e-01   1.67423e+02   1.67500e+02
           858   8.58000e+02  -3.15096e-01   1.67922e+02   1.68000e+02
           861   8.61000e+02  -3.15421e-01   1.68422e+02   1.68500e+02
           864   8.64000e+02  -3.15793e-01   1.68922e+02   1.69000e+02
           867   8.67000e+02  -3.16166e-01   1.69422e+02   1.69500e+02
           870   8.70000e+02  -3.16575e-01   1.69922e+02   1.70000e+02
           873   8.73000e+02  -3.16980e-01   1.70421e+02   1.70500e+02
           876   8.76000e+02  -3.17337e-01   1.70921e+02   1.71000e+02
           879   8.79000e+02  -3.17748e-01   1.71421e+02   1.71500e+02
           882   8.82000e+02  -3.18172e-01   1.71921e+02   1.72000e+02
           885   8.85000e+02  -3.18527e-01   1.72421e+02   1.72500e+02
           888   8.88000e+02  -3.18876e-01   1.72920e+02   1.73000e+02
           891   8.91000e+02  -3.19240e-01   1.73420e+02   1.73500e+02
           894   8.94000e+02  -3.19625e-01   1.73920e+02   1.74000e+02
           897   8.97000e+02  -3.20011e-01   1.74420e+02   1.74500e+02
           900   9.00000e+02  -3.20445e-01   1.74920e+02   1.75000e+02
           903   9.03000e+02  -3.20864e-01   1.75419e+02   1.75500e+02
           906   9.06000e+02  -3.21272e-01   1.75919e+02   1.76000e+02
           909   9.09000e+02  -3.21675e-01   1.76419e+02   1.76500e+02
           912   9.12000e+02  -3.22031e-01   1.76919e+02   1.77000e+02
           915   9.15000e+02  -3.22402e-01   1.77419e+02   1.77500e+02
           918   9.18000e+02  -3.22836e-01   1.77918e+02   1.78000e+02
           921   9.21000e+02  -3.23283e-01   1.78418e+02   1.78500e+02
           924   9.24000e+02  -3.23697e-01   1.78918e+02   1.79000e+02
           927   9.27000e+02  -3.24115e-01   1.79418e+02   1.79500e+02
           930   9.30000e+02  -3.24523e-01   1.79917e+02   1.80000e+02
           933   9.33000e+02  -3.24893e-01   1.80417e+02   1.80500e+02
           936   9.36000e+02  -3.25256e-01   1.80917e+02   1.81000e+02
           939   9.39000e+02  -3.25710e-01   1.81417e+02   1.81500e+02
           942   9.42000e+02  -3.26204e-01   1.81917e+02   1.82000e+02
           945   9.45000e+02  -3.26591e-01   1.82416e+02   1.82500e+02
           948   9.48000e+02  -3.26956e-01   1.82916e+02   1.83000e+02
           951   9.51000e+02  -3.27325e-01   1.83416e+02   1.83500e+02
           954   9.54000e+02  -3.27671e-01   1.83916e+02   1.84000e+02
           957   9.57000e+02  -3.28018e-01   1.84416e+02   1.84500e+02
           960   9.60000e+02  -3.28477e-01   1.84915e+02   1.85000e+02
           963   9.63000e+02  -3.28967e-01   1.85415e+02   1.85500e+02
           966   9.66000e+02  -3.29453e-01   1.85915e+02   1.86000e+02
           969   9.69000e+02  -3.29895e-01   1.86415e+02   1.86500e+02
           972   9.72000e+02  -3.30378e-01   1.86914e+02   1.87000e+02
           975   9.75000e+02  -3.30872e-01   1.87414e+02   1.87500e+02
           978   9.78000e+02  -3.31371e-01   1.87914e+02   1.88000e+02
           981   9.81000e+02  -3.31888e-01   1.88414e+02   1.88500e+02
           984   9.84000e+02  -3.32449e-01   1.88913e+02   1.89000e+02
           987   9.87000e+02  -3.32993e-01   1.89413e+02   1.89500e+02
           990   9.90000e+02  -3.33453e-01   1.89913e+02   1.90000e+02
           993   9.93000e+02  -3.33853e-01   1.90413e+02   1.90500e+02
           996   9.96000e+02  -3.34248e-01   1.90913e+02   1.91000e+02
           999   9.99000e+02  -3.34683e-01   1.91412e+02   1.91500e+02
          1002   1.00200e+03  -3.35173e-01   1.91912e+02   1.92000e+02
          1005   1.00500e+03  -3.35655e-01   1.92412e+02   1.92500e+02
          1008   1.00800e+03  -3.36085e-01   1.92912e+02   1.93000e+02
          1011   1.01100e+03  -3.36596e-01   1.93411e+02   1.93500e+02
          1014   1.01400e+03  -3.37210e-01   1.93911e+02   1.94000e+02
          1017   1.01700e+03  -3.37868e-01   1.94411e+02   1.94500e+02
          1020   1.02000e+03  -3.38475e-01   1.94911e+02   1.95000e+02
          1023   1.02300e+03  -3.39057e-01   1.95410e+02   1.95500e+02
          1026   1.02600e+03  -3.39581e-01   1.95910e+02   1.96000e+02
          1029   1.02900e+03  -3.40100e-01   1.96410e+02   1.96500e+02
          1032   1.03200e+03  -3.40592e-01   1.96910e+02   1.97000e+02
          1035   1.03500e+03  -3.41087e-01   1.97409e+02   1.97500e+02
          1038   1.03800e+03  -3.41611e-01   1.97909e+02   1.98000e+02
          1041   1.04100e+03  -3.42145e-01   1.98409e+02   1.98500e+02
          1044   1.04400e+03  -3.42657e-01   1.98909e+02   1.99000e+02
          1047   1.04700e+03  -3.43194e-01   1.99408e+02   1.99500e+02
          1050   1.05000e+03  -3.43821e-01   1.99908e+02   2.00000e+02
          1053   1.05300e+03  -3.44473e-01   2.00408e+02   2.00500e+02
          1056   1.05600e+03  -3.45109e-01   2.00907e+02   2.01000e+02
          1059   1.05900e+03  -3.45713e-01   2.01407e+02   2.01500e+02
          1062   1.06200e+03  -3.46360e-01   2.01907e+02   2.02000e+02
          1065   1.06500e+03  -3.46983e-01   2.02407e+02   2.02500e+02
          1068   1.06800e+03  -3.47518e-01   2.02906e+02   2.03000e+02
          1071   1.07100e+03  -3.48076e-01   2.03406e+02   2.03500e+02
          1074   1.07400e+03  -3.48681e-01   2.03906e+02   2.04000e+02
          1077   1.07700e+03  -3.49298e-01   2.04406e+02   2.04500e+02
          1080   1.08000e+03  -3.49965e-01   2.04905e+02   2.05000e+02
          1083   1.08300e+03  -3.50654e-01   2.05405e+02   2.05500e+02
          1086   1.08600e+03  -3.51357e-01   2.05905e+02   2.06000e+02
          1089   1.08900e+03  -3.52114e-01   2.06404e+02   2.06500e+02
          1092   1.09200e+03  -3.52918e-01   2.06904e+02   2.07000e+02
          1095   1.09500e+03  -3.53737e-01   2.07404e+02   2.07500e+02
          1098   1.09800e+03  -3.54526e-01   2.07903e+02   2.08000e+02
          1101   1.10100e+03  -3.55306e-01   2.08403e+02   2.08500e+02
          1104   1.10400e+03  -3.56142e-01   2.08903e+02   2.09000e+02
          1107   1.10700e+03  -3.56993e-01   2.09402e+02   2.09500e+02
          1110   1.11000e+03  -3.57860e-01   2.09902e+02   2.10000e+02
          1113   1.11300e+03  -3.58713e-01   2.10402e+02   2.10500e+02
          1116   1.11600e+03  -3.59568e-01   2.10901e+02   2.11000e+02
          1119   1.11900e+03  -3.60379e-01   2.11401e+02   2.11500e+02
          1122   1.12200e+03  -3.61132e-01   2.11901e+02   2.12000e+02
          1125   1.12500e+03  -3.61959e-01   2.12400e+02   2.12500e+02
          1128   1.12800e+03  -3.62903e-01   2.12900e+02   2.13000e+02
          1131   1.13100e+03  -3.63838e-01   2.13399e+02   2.13500e+02
          1134   1.13400e+03  -3.64711e-01   2.13899e+02   2.14000e+02
          1137   1.13700e+03  -3.65620e-01   2.14399e+02   2.14500e+02
          1140   1.14000e+03  -3.66569e-01   2.14898e+02   2.15000e+02
          1143   1.14300e+03  -3.67519e-01   2.15398e+02   2.15500e+02
          1146   1.14600e+03  -3.68495e-01   2.15898e+02   2.16000e+02
          1149   1.14900e+03  -3.69545e-01   2.16397e+02   2.16500e+02
          1152   1.15200e+03  -3.70732e-01   2.16897e+02   2.17000e+02
          1155   1.15500e+03  -3.72009e-01   2.17396e+02   2.17500e+02
          1158   1.15800e+03  -3.73320e-01   2.17896e+02   2.18000e+02
          1161   1.16100e+03  -3.74520e-01   2.18395e+02   2.18500e+02
          1164   1.16400e+03  -3.75670e-01   2.18895e+02   2.19000e+02
          1167   1.16700e+03  -3.76659e-01   2.19395e+02   2.19500e+02
          1170   1.17000e+03  -3.77312e-01   2.19894e+02   2.20000e+02
          1173   1.17300e+03  -3.77589e-01   2.20394e+02   2.20500e+02
          1176   1.17600e+03  -3.77767e-01   2.20894e+02   2.21000e+02
          1179   1.17900e+03  -3.75412e-01   2.21394e+02   2.21500e+02
          1182   1.18200e+03  -3.74606e-01   2.21895e+02   2.22000e+02
          1185   1.18500e+03  -3.74794e-01   2.22394e+02   2.22500e+02
          1188   1.18800e+03  -3.76994e-01   2.22894e+02   2.23000e+02
          1191   1.19100e+03  -3.80311e-01   2.23393e+02   2.23500e+02
          1194   1.19400e+03  -3.84947e-01   2.23891e+02   2.24000e+02
          1197   1.19700e+03  -3.89554e-01   2.24390e+02   2.24500e+02
          1200   1.20000e+03  -3.93893e-01   2.24888e+02   2.25000e+02
          1203   1.20300e+03  -3.97702e-01   2.25387e+02   2.25500e+02
          1206   1.20600e+03  -4.00273e-01   2.25886e+02   2.26000e+02
          1209   1.20900e+03  -4.02684e-01   2.26385e+02   2.26500e+02
          1212   1.21200e+03  -4.05127e-01   2.26885e+02   2.27000e+02
          1215   1.21500e+03  -4.07736e-01   2.27384e+02   2.27500e+02
          1218   1.21800e+03  -4.10697e-01   2.27883e+02   2.28000e+02
          1221   1.22100e+03  -4.13949e-01   2.28382e+02   2.28500e+02
          1224   1.22400e+03  -4.17438e-01   2.28881e+02   2.29000e+02
          1227   1.22700e+03  -4.21152e-01   2.29379e+02   2.29500e+02
          1230   1.23000e+03  -4.25216e-01   2.29878e+02   2.30000e+02
          1233   1.23300e+03  -4.29638e-01   2.30377e+02   2.30500e+02
          1236   1.23600e+03  -4.34380e-01   2.30875e+02   2.31000e+02
          1239   1.23900e+03  -4.39432e-01   2.31374e+02   2.31500e+02
          1242   1.24200e+03  -4.44954e-01   2.31872e+02   2.32000e+02
          1245   1.24500e+03  -4.50849e-01   2.32370e+02   2.32500e+02
          1248   1.24800e+03  -4.57152e-01   2.32868e+02   2.33000e+02
          1251   1.25100e+03  -4.64053e-01   2.33366e+02   2.33500e+02
          1254   1.25400e+03  -4.71425e-01   2.33864e+02   2.34000e+02
          1257   1.25700e+03  -4.79433e-01   2.34361e+02   2.34500e+02
          1260   1.26000e+03  -4.87719e-01   2.34859e+02   2.35000e+02
          1263   1.26300e+03  -4.96303e-01   2.35356e+02   2.35500e+02
          1266   1.26600e+03  -5.05297e-01   2.35853e+02   2.36000e+02
          1269   1.26900e+03  -5.15263e-01   2.36350e+02   2.36500e+02
          1272   1.27200e+03  -5.25723e-01   2.36847e+02   2.37000e+02
          1275   1.27500e+03  -5.36442e-01   2.37344e+02   2.37500e+02
          1278   1.27800e+03  -5.47912e-01   2.37840e+02   2.38000e+02
          1281   1.28100e+03  -5.60009e-01   2.38337e+02   2.38500e+02
          1284   1.28400e+03  -5.72740e-01   2.38833e+02   2.39000e+02
          1287   1.28700e+03  -5.86509e-01   2.39329e+02   2.39500e+02
          1290   1.29000e+03  -6.00521e-01   2.39824e+02   2.40000e+02
          1293   1.29300e+03  -6.02525e-01   2.40324e+02   2.40500e+02
          1296   1.29600e+03  -6.32708e-01   2.40815e+02   2.41000e+02
          1299   1.29900e+03  -6.50121e-01   2.41309e+02   2.41500e+02
          1302   1.30200e+03  -6.65635e-01   2.41804e+02   2.42000e+02
          1305   1.30500e+03  -6.81053e-01   2.42300e+02   2.42500e+02
          1308   1.30800e+03  -6.96602e-01   2.42795e+02   2.43000e+02
          1311   1.31100e+03  -7.12281e-01   2.43290e+02   2.43500e+02
          1314   1.31400e+03  -7.28173e-01   2.43785e+02   2.44000e+02
          1317   1.31700e+03  -8.27154e-01   2.44256e+02   2.44500e+02
          1320   1.32000e+03  -9.41104e-01   2.44722e+02   2.45000e+02
          1323   1.32300e+03  -9.71047e-01   2.45213e+02   2.45500e+02
          1326   1.32600e+03  -9.87587e-01   2.45708e+02   2.46000e+02
          1329   1.32900e+03  -1.04309e+00   2.46191e+02   2.46500e+02
          1332   1.33200e+03  -1.16147e+00   2.46655e+02   2.47000e+02
          1335   1.33500e+03  -1.45656e+00   2.47067e+02   2.47500e+02
          1338   1.33800e+03  -1.38603e+00   2.47588e+02   2.48000e+02
          1341   1.34100e+03  -1.04630e+00   2.48189e+02   2.48500e+02
          1344   1.34400e+03  -7.58816e-01   2.48774e+02   2.49000e+02
          1347   1.34700e+03  -5.68338e-01   2.49331e+02   2.49500e+02
          1350   1.35000e+03  -4.58517e-01   2.49863e+02   2.50000e+02
          1353   1.35300e+03  -3.93781e-01   2.50382e+02   2.50500e+02
          1356   1.35600e+03  -3.56070e-01   2.50894e+02   2.51000e+02
          1359   1.35900e+03  -3.33133e-01   2.51400e+02   2.51500e+02
          1362   1.36200e+03  -3.18799e-01   2.51904e+02   2.52000e+02
          1365   1.36500e+03  -3.08676e-01   2.52407e+02   2.52500e+02
          1368   1.36800e+03  -3.01276e-01   2.52910e+02   2.53000e+02
          1371   1.37100e+03  -2.96019e-01   2.53411e+02   2.53500e+02
          1374   1.37400e+03  -2.91932e-01   2.53912e+02   2.54000e+02
          1377   1.37700e+03  -2.88860e-01   2.54413e+02   2.54500e+02
          1380   1.38000e+03  -2.86453e-01   2.54914e+02   2.55000e+02
          1383   1.38300e+03  -2.84616e-01   2.55414e+02   2.55500e+02
          1386   1.38600e+03  -2.83166e-01   2.55915e+02   2.56000e+02
          1389   1.38900e+03  -2.81929e-01   2.56415e+02   2.56500e+02
          1392   1.39200e+03  -2.80900e-01   2.56915e+02   2.57000e+02
          1395   1.39500e+03  -2.80002e-01   2.57415e+02   2.57500e+02
          1398   1.39800e+03  -2.79307e-01   2.57915e+02   2.58000e+02
          1401   1.40100e+03  -2.78708e-01   2.58415e+02   2.58500e+02
          1404   1.40400e+03  -2.78170e-01   2.58916e+02   2.59000e+02
          1407   1.40700e+03  -2.77672e-01   2.59416e+02   2.59500e+02
          1410   1.41000e+03  -2.77263e-01   2.59916e+02   2.60000e+02
          1413   1.41300e+03  -2.76934e-01   2.60416e+02   2.60500e+02
          1416   1.41600e+03  -2.76646e-01   2.60916e+02   2.61000e+02
          1419   1.41900e+03  -2.76364e-01   2.61416e+02   2.61500e+02
          1422   1.42200e+03  -2.76114e-01   2.61916e+02   2.62000e+02
          1425   1.42500e+03  -2.75925e-01   2.62416e+02   2.62500e+02
          1428   1.42800e+03  -2.75732e-01   2.62916e+02   2.63000e+02
          1431   1.43100e+03  -2.75496e-01   2.63416e+02   2.63500e+02
          1434   1.43400e+03  -2.75164e-01   2.63916e+02   2.64000e+02
          1437   1.43700e+03  -2.74827e-01   2.64416e+02   2.64500e+02
          1440   1.44000e+03  -2.74561e-01   2.64916e+02   2.65000e+02
          1443   1.44300e+03  -2.74313e-01   2.65416e+02   2.65500e+02
          1446   1.44600e+03  -2.74107e-01   2.65916e+02   2.66000e+02
          1449   1.44900e+03  -2.73829e-01   2.66416e+02   2.66500e+02
          1452   1.45200e+03  -2.73323e-01   2.66916e+02   2.67000e+02
          1455   1.45500e+03  -2.72706e-01   2.67416e+02   2.67500e+02
          1458   1.45800e+03  -2.72097e-01   2.67916e+02   2.68000e+02
          1461   1.46100e+03  -2.71616e-01   2.68416e+02   2.68500e+02
          1464   1.46400e+03  -2.71128e-01   2.68916e+02   2.69000e+02
          1467   1.46700e+03  -2.70619e-01   2.69416e+02   2.69500e+02
          1470   1.47000e+03  -2.70033e-01   2.69916e+02   2.70000e+02
          1473   1.47300e+03  -2.69357e-01   2.70416e+02   2.70500e+02
          1476   1.47600e+03  -2.68594e-01   2.70917e+02   2.71000e+02
          1479   1.47900e+03  -2.67767e-01   2.71417e+02   2.71500e+02
          1482   1.48200e+03  -2.66918e-01   2.71917e+02   2.72000e+02
          1485   1.48500e+03  -2.66034e-01   2.72417e+02   2.72500e+02
          1488   1.48800e+03  -2.65127e-01   2.72917e+02   2.73000e+02
          1491   1.49100e+03  -2.64197e-01   2.73418e+02   2.73500e+02
          1494   1.49400e+03  -2.63231e-01   2.73918e+02   2.74000e+02
          1497   1.49700e+03  -2.62239e-01   2.74418e+02   2.74500e+02
          1500   1.50000e+03  -2.62628e-01   2.74918e+02   2.75000e+02
          1503   1.50300e+03  -2.61541e-01   2.75418e+02   2.75500e+02
          1506   1.50600e+03  -2.60396e-01   2.75918e+02   2.76000e+02
          1509   1.50900e+03  -2.59229e-01   2.76419e+02   2.76500e+02
          1512   1.51200e+03  -2.58172e-01   2.76919e+02   2.77000e+02
          1515   1.51500e+03  -2.57044e-01   2.77419e+02   2.77500e+02
          1518   1.51800e+03  -2.55746e-01   2.77920e+02   2.78000e+02
          1521   1.52100e+03  -2.54331e-01   2.78420e+02   2.78500e+02
          1524   1.52400e+03  -2.53081e-01   2.78920e+02   2.79000e+02
          1527   1.52700e+03  -2.51925e-01   2.79421e+02   2.79500e+02
          1530   1.53000e+03  -2.51352e-01   2.79921e+02   2.80000e+02
          1533   1.53300e+03  -2.52448e-01   2.80420e+02   2.80500e+02
          1536   1.53600e+03  -2.49962e-01   2.80921e+02   2.81000e+02
          1539   1.53900e+03  -2.47879e-01   2.81422e+02   2.81500e+02
          1542   1.54200e+03  -2.46341e-01   2.81922e+02   2.82000e+02
          1545   1.54500e+03  -2.44773e-01   2.82422e+02   2.82500e+02
          1548   1.54800e+03  -2.43252e-01   2.82923e+02   2.83000e+02
          1551   1.55100e+03  -2.41809e-01   2.83423e+02   2.83500e+02
          1554   1.55400e+03  -2.40379e-01   2.83924e+02   2.84000e+02
          1557   1.55700e+03  -2.38840e-01   2.84424e+02   2.84500e+02
          1560   1.56000e+03  -2.37359e-01   2.84924e+02   2.85000e+02
          1563   1.56300e+03  -2.35859e-01   2.85425e+02   2.85500e+02
          1566   1.56600e+03  -2.34183e-01   2.85925e+02   2.86000e+02
          1569   1.56900e+03  -2.32199e-01   2.86426e+02   2.86500e+02
          1572   1.57200e+03  -2.30051e-01   2.86927e+02   2.87000e+02
          1575   1.57500e+03  -2.27814e-01   2.87427e+02   2.87500e+02
          1578   1.57800e+03  -2.25379e-01   2.87928e+02   2.88000e+02
          1581   1.58100e+03  -2.22711e-01   2.88429e+02   2.88500e+02
          1584   1.58400e+03  -2.19934e-01   2.88930e+02   2.89000e+02
          1587   1.58700e+03  -2.17276e-01   2.89430e+02   2.89500e+02
          1590   1.59000e+03  -2.14745e-01   2.89931e+02   2.90000e+02
          1593   1.59300e+03  -2.12222e-01   2.90432e+02   2.90500e+02
          1596   1.59600e+03  -2.09862e-01   2.90933e+02   2.91000e+02
          1599   1.59900e+03  -2.07558e-01   2.91433e+02   2.91500e+02
          1602   1.60200e+03  -2.05212e-01   2.91934e+02   2.92000e+02
          1605   1.60500e+03  -2.02789e-01   2.92435e+02   2.92500e+02
          1608   1.60800e+03  -2.00202e-01   2.92935e+02   2.93000e+02
          1611   1.61100e+03  -1.97100e-01   2.93436e+02   2.93500e+02
          1614   1.61400e+03  -1.93803e-01   2.93937e+02   2.94000e+02
          1617   1.61700e+03  -1.90552e-01   2.94438e+02   2.94500e+02
          1620   1.62000e+03  -1.87282e-01   2.94939e+02   2.95000e+02
          1623   1.62300e+03  -1.84014e-01   2.95440e+02   2.95500e+02
          1626   1.62600e+03  -1.80728e-01   2.95941e+02   2.96000e+02
          1629   1.62900e+03  -1.77358e-01   2.96442e+02   2.96500e+02
          1632   1.63200e+03  -1.73864e-01   2.96944e+02   2.97000e+02
          1635   1.63500e+03  -1.70310e-01   2.97445e+02   2.97500e+02
          1638   1.63800e+03  -1.66675e-01   2.97946e+02   2.98000e+02
          1641   1.64100e+03  -1.61231e-01   2.98448e+02   2.98500e+02
          1644   1.64400e+03  -1.55412e-01   2.98949e+02   2.99000e+02
          1647   1.64700e+03  -1.52725e-01   2.99450e+02   2.99500e+02
          1650   1.65000e+03  -1.49482e-01   2.99951e+02   3.00000e+02
          1653   1.65300e+03  -1.46061e-01   3.00452e+02   3.00500e+02
          1656   1.65600e+03  -1.42462e-01   3.00953e+02   3.01000e+02
          1659   1.65900e+03  -1.38835e-01   3.01455e+02   3.01500e+02
          1662   1.66200e+03  -1.35212e-01   3.01956e+02   3.02000e+02
          1665   1.66500e+03  -1.31584e-01   3.02457e+02   3.02500e+02
          1668   1.66800e+03  -1.27851e-01   3.02958e+02   3.03000e+02
          1671   1.67100e+03  -1.24068e-01   3.03459e+02   3.03500e+02
          1674   1.67400e+03  -1.20270e-01   3.03961e+02   3.04000e+02
          1677   1.67700e+03  -1.16454e-01   3.04462e+02   3.04500e+02
          1680   1.68000e+03  -1.12541e-01   3.04963e+02   3.05000e+02
          1683   1.68300e+03  -1.08525e-01   3.05464e+02   3.05500e+02
          1686   1.68600e+03  -1.04448e-01   3.05966e+02   3.06000e+02
          1689   1.68900e+03  -1.00286e-01   3.06467e+02   3.06500e+02
          1692   1.69200e+03  -9.59624e-02   3.06968e+02   3.07000e+02
          1695   1.69500e+03  -9.16647e-02   3.07470e+02   3.07500e+02
          1698   1.69800e+03  -8.74388e-02   3.07971e+02   3.08000e+02
          1701   1.70100e+03  -8.33529e-02   3.08472e+02   3.08500e+02
          1704   1.70400e+03  -7.93005e-02   3.08974e+02   3.09000e+02
          1707   1.70700e+03  -7.51769e-02   3.09475e+02   3.09500e+02
          1710   1.71000e+03  -7.09960e-02   3.09976e+02   3.10000e+02
          1713   1.71300e+03  -6.66927e-02   3.10478e+02   3.10500e+02
          1716   1.71600e+03  -6.22286e-02   3.10979e+02   3.11000e+02
          1719   1.71900e+03  -5.76863e-02   3.11481e+02   3.11500e+02
          1722   1.72200e+03  -5.31427e-02   3.11982e+02   3.12000e+02
          1725   1.72500e+03  -4.85846e-02   3.12484e+02   3.12500e+02
          1728   1.72800e+03  -4.92855e-02   3.12984e+02   3.13000e+02
          1731   1.73100e+03  -5.53980e-02   3.13482e+02   3.13500e+02
          1734   1.73400e+03  -4.25485e-02   3.13986e+02   3.14000e+02
          1737   1.73700e+03  -3.43944e-02   3.14489e+02   3.14500e+02
          1740   1.74000e+03  -2.74118e-02   3.14991e+02   3.15000e+02
          1743   1.74300e+03  -2.07617e-02   3.15493e+02   3.15500e+02
          1746   1.74600e+03  -1.46630e-02   3.15995e+02   3.16000e+02
          1749   1.74900e+03  -8.72064e-03   3.16497e+02   3.16500e+02
          1752   1.75200e+03  -3.22388e-03   3.16999e+02   3.17000e+02
          1755   1.75500e+03   2.49355e-03   3.17501e+02   3.17500e+02
          1758   1.75800e+03   8.34032e-03   3.18003e+02   3.18000e+02
          1761   1.76100e+03   1.36810e-02   3.18505e+02   3.18500e+02
          1764   1.76400e+03   1.75426e-02   3.19006e+02   3.19000e+02
          1767   1.76700e+03   2.16787e-02   3.19507e+02   3.19500e+02
          1770   1.77000e+03   2.69062e-02   3.20009e+02   3.20000e+02
          1773   1.77300e+03   3.23034e-02   3.20511e+02   3.20500e+02
          1776   1.77600e+03   3.78852e-02   3.21013e+02   3.21000e+02
          1779   1.77900e+03   4.36662e-02   3.21515e+02   3.21500e+02
          1782   1.78200e+03   4.97111e-02   3.22017e+02   3.22000e+02
          1785   1.78500e+03   5.58910e-02   3.22519e+02   3.22500e+02
          1788   1.78800e+03   6.22193e-02   3.23021e+02   3.23000e+02
          1791   1.79100e+03   6.85800e-02   3.23523e+02   3.23500e+02
          1794   1.79400e+03   7.50051e-02   3.24025e+02   3.24000e+02
          1797   1.79700e+03   8.15342e-02   3.24528e+02   3.24500e+02
          1800   1.80000e+03   8.80993e-02   3.25030e+02   3.25000e+02
          1803   1.80300e+03   9.45696e-02   3.25532e+02   3.25500e+02
          1806   1.80600e+03   1.00783e-01   3.26034e+02   3.26000e+02
          1809   1.80900e+03   1.06705e-01   3.26536e+02   3.26500e+02
          1812   1.81200e+03   1.12237e-01   3.27038e+02   3.27000e+02
          1815   1.81500e+03   1.17752e-01   3.27540e+02   3.27500e+02
          1818   1.81800e+03   1.23247e-01   3.28042e+02   3.28000e+02
          1821   1.82100e+03   1.28720e-01   3.28544e+02   3.28500e+02
          1824   1.82400e+03   1.34166e-01   3.29046e+02   3.29000e+02
          1827   1.82700e+03   1.39479e-01   3.29548e+02   3.29500e+02
          1830   1.83000e+03   1.44546e-01   3.30049e+02   3.30000e+02
          1833   1.83300e+03   1.49524e-01   3.30551e+02   3.30500e+02
          1836   1.83600e+03   1.54520e-01   3.31053e+02   3.31000e+02
          1839   1.83900e+03   1.59535e-01   3.31555e+02   3.31500e+02
          1842   1.84200e+03   1.64393e-01   3.32056e+02   3.32000e+02
          1845   1.84500e+03   1.69035e-01   3.32558e+02   3.32500e+02
          1848   1.84800e+03   1.73669e-01   3.33060e+02   3.33000e+02
          1851   1.85100e+03   1.78310e-01   3.33561e+02   3.33500e+02
          1854   1.85400e+03   1.82851e-01   3.34063e+02   3.34000e+02
          1857   1.85700e+03   1.87185e-01   3.34564e+02   3.34500e+02
          1860   1.86000e+03   1.91381e-01   3.35066e+02   3.35000e+02
          1863   1.86300e+03   1.95463e-01   3.35567e+02   3.35500e+02
          1866   1.86600e+03   1.99342e-01   3.36069e+02   3.36000e+02
          1869   1.86900e+03   2.02963e-01   3.36570e+02   3.36500e+02
          1872   1.87200e+03   2.06447e-01   3.37071e+02   3.37000e+02
          1875   1.87500e+03   2.09800e-01   3.37572e+02   3.37500e+02
          1878   1.87800e+03   2.12875e-01   3.38073e+02   3.38000e+02
          1881   1.88100e+03   2.15320e-01   3.38574e+02   3.38500e+02
          1884   1.88400e+03   2.17808e-01   3.39075e+02   3.39000e+02
          1887   1.88700e+03   2.20132e-01   3.39576e+02   3.39500e+02
          1890   1.89000e+03   2.22365e-01   3.40077e+02   3.40000e+02
          1893   1.89300e+03   2.24666e-01   3.40578e+02   3.40500e+02
          1896   1.89600e+03   2.27022e-01   3.41079e+02   3.41000e+02
          1899   1.89900e+03   2.29362e-01   3.41580e+02   3.41500e+02
          1902   1.90200e+03   2.31641e-01   3.42080e+02   3.42000e+02
          1905   1.90500e+03   2.33801e-01   3.42581e+02   3.42500e+02
          1908   1.90800e+03   2.35657e-01   3.43082e+02   3.43000e+02
          1911   1.91100e+03   2.37171e-01   3.43582e+02   3.43500e+02
          1914   1.91400e+03   2.37925e-01   3.44083e+02   3.44000e+02
          1917   1.91700e+03   2.38357e-01   3.44583e+02   3.44500e+02
          1920   1.92000e+03   2.38166e-01   3.45083e+02   3.45000e+02
          1923   1.92300e+03   2.37590e-01   3.45583e+02   3.45500e+02
          1926   1.92600e+03   2.36547e-01   3.46083e+02   3.46000e+02
          1929   1.92900e+03   2.35097e-01   3.46582e+02   3.46500e+02
          1932   1.93200e+03   2.33473e-01   3.47082e+02   3.47000e+02
          1935   1.93500e+03   2.31799e-01   3.47581e+02   3.47500e+02
          1938   1.93800e+03   2.30210e-01   3.48081e+02   3.48000e+02
          1941   1.94100e+03   2.28771e-01   3.48580e+02   3.48500e+02
          1944   1.94400e+03   2.29370e-01   3.49080e+02   3.49000e+02
          1947   1.94700e+03   2.51021e-01   3.49588e+02   3.49500e+02
          1950   1.95000e+03   4.08112e-01   3.50143e+02   3.50000e+02
          1953   1.95300e+03   4.96076e-01   3.50174e+02   3.50000e+02
          1956   1.95600e+03   5.36806e-01   3.50188e+02   3.50000e+02
          1959   1.95900e+03   5.51236e-01   3.50193e+02   3.50000e+02
          1962   1.96200e+03   5.53913e-01   3.50194e+02   3.50000e+02
          1965   1.96500e+03   5.52166e-01   3.50194e+02   3.50000e+02
          1968   1.96800e+03   5.48637e-01   3.50192e+02   3.50000e+02
          1971   1.97100e+03   5.44677e-01   3.50191e+02   3.50000e+02
          1974   1.97400e+03   5.40618e-01   3.50190e+02   3.50000e+02
          1977   1.97700e+03   5.36588e-01   3.50188e+02   3.50000e+02
          1980   1.98000e+03   5.32578e-01   3.50187e+02   3.50000e+02
          1983   1.98300e+03   5.28634e-01   3.50185e+02   3.50000e+02
          1986   1.98600e+03   5.24703e-01   3.50184e+02   3.50000e+02
          1989   1.98900e+03   5.20741e-01   3.50183e+02   3.50000e+02
          1992   1.99200e+03   5.16888e-01   3.50181e+02   3.50000e+02
          1995   1.99500e+03   5.13146e-01   3.50180e+02   3.50000e+02
          1998   1.99800e+03   5.09626e-01   3.50179e+02   3.50000e+02
          2001   2.00100e+03   5.06190e-01   3.50178e+02   3.50000e+02
          2004   2.00400e+03   5.02753e-01   3.50176e+02   3.50000e+02
          2007   2.00700e+03   4.99344e-01   3.50175e+02   3.50000e+02
          2010   2.01000e+03   4.96018e-01   3.50174e+02   3.50000e+02
!&water bottle